Folder: ACADB_brGDGT_full/Results

Note: readme.md
# BRT calibrations for Arid Central Asian for paleo brGDGT 

## Project description
This GitHub project is associated to the publication of *Boosted Regression Trees machine-learning method drastically improves the brGDGT-based climate reconstruction in drylands.* in *XXXX* accessible [here](https://www.researchgate.net/profile/Lucas-Dugerdil?ev=hdr_xprf)

This R script is the full script develloped in the publication.
It is usefull to verify the replicability of this study.
The script could be modified for calibrations in other study areas.
This script is available on zenodo and citable at 
[![DOI](https://zenodo.org/badge/952259754.svg)](https://doi.org/10.5281/zenodo.16658140)

## How to install/run the ACADB brGDGT calibrations?
1. Install [R](https://larmarange.github.io/analyse-R/installation-de-R-et-RStudio.html)
2. It is easier to use [Rstudio](https://posit.co/downloads/)
3. Download this GitHub repository from ZIP file (by clicing on the green button `<> Code` beyond. 
## To run the full code
	- Open the `ACADB_brGDGT_full.Rproj` file in Rstudio
	- (Optional) to apply the `randomTF()` test on your different models, turn to `TRUE` the test change into `test.randomTF = T`, then the script will launch the function `Plot.randomTF()`
	- (Optional) many option and settings for each function (e.g. change the `BRT` model for the `RF`, export figure in `plotly`, etc.) can be discovered when look at the `./Import/Script/BRT_script.R` file

File: XRD_BRT_brACA.csv
"","Age","MPCOQ","MAAT","MAF","AI"
"1",56,-2.28223,2.53677,10.1781,2185.4
"2",141,-1.60055,2.43155,10.7522,1574.08
"3",441,11.053,4.41788,13.0828,2282.89
"4",672,5.08078,4.47449,11.5346,1297.14
"5",918,22.2443,4.14553,13.0084,1053.95
"6",1158,13.79,3.79823,13.1134,2351
"7",1393,-3.2631,-3.02297,8.95866,2388.32
"8",1640,0.234595,-1.96242,9.88896,2565.58
"9",1883,-8.28048,-2.35709,6.8195,2744.46
"10",2227,11.2197,0.0605373,7.7981,3673.12
"11",2392,8.76707,0.515134,9.61102,3136.11
"12",2568,4.4252,2.61273,10.6859,3163.18
"13",2747,6.96595,2.05222,11.6592,3059.31
"14",2910,-4.59728,1.37964,9.65544,3147.86
"15",3083,2.77784,2.24368,8.87975,3362.96
"16",3237,9.95144,1.49985,10.3534,3005.38
"17",3360,18.4575,1.12301,9.8728,3143.07
"18",3478,6.39549,1.41115,9.04732,3705.37
"19",3598,-3.27089,2.88963,9.78045,3022.49
"20",3716,31.4878,4.16879,14.1198,2114.01
"21",3835,13.3405,4.39153,11.1631,2557.51
"22",3950,42.1756,1.91032,10.6664,3591.84
"23",4071,25.4422,1.59607,9.92268,3381.9
"24",4183,17.1027,-1.6761,6.21597,3132.61
"25",4302,11.9237,-1.86992,6.26426,3224.21
"26",4422,16.3211,0.20763,7.26356,3319.79
"27",4537,20.4323,-0.447208,9.29319,3651.33
"28",4645,8.29084,-2.95132,6.60467,2927.67
"29",4786,10.574,-3.28023,5.76736,3281.77
"30",4923,27.5137,0.54955,9.21742,3611.41
"31",5057,34.4196,-0.0863098,7.7007,3109.18
"32",5173,13.8504,-1.90096,7.00832,3258.15
"33",5289,14.4195,-1.65094,7.56724,2602.71
"34",5403,17.5473,-1.68005,8.00329,3571.15
"35",5517,4.61597,-2.32616,6.55229,3809.79
"36",5601,14.2347,-0.150349,7.54709,4091.48
"37",5683,0.590591,-2.81876,6.22033,3118.74
"38",5766,6.21941,-0.926324,8.22405,3680.74
"39",5849,27.5629,-2.03374,7.01356,3391.88
"40",5932,8.52073,-2.77749,7.59276,3115.29
"41",6056,16.6269,-4.0952,5.22134,2616.49
"42",6182,-3.80812,-4.38252,6.85418,2617.67
"43",6308,5.90143,-3.67633,6.20438,3271.59
"44",6435,-0.221388,-4.30889,5.40617,3152.34
"45",6562,-20.3769,-4.18329,5.65928,2132.54
"46",6688,14.762,-3.26117,5.30146,3246.33
"47",6815,0.240141,-5.3332,4.06528,2647.62
"48",6943,-7.55165,-4.53254,5.02088,2802.16
"49",7075,-2.28564,-4.95532,5.02103,2408.65
"50",7273,-14.4629,-3.87887,6.61055,2140.43

File: XRD_BRT_brACA_karid.csv
"","Age","MPCOQ","MAAT","MAF","AI"
"1",56,3.58003,3.58288,9.30877,2179.23
"2",141,3.27275,2.99927,10.4457,1684.9
"3",441,10.2738,5.52219,10.5462,2057.13
"4",672,6.54182,4.0245,12.2725,1341.95
"5",918,6.56891,5.61572,10.9729,1095.77
"6",1158,3.1168,8.36001,11.4748,2475.54
"7",1393,3.78794,-1.42883,6.86302,2572.58
"8",1640,-0.515367,-0.725139,7.76359,2520.15
"9",1883,-0.0481477,-3.65543,6.45051,3026.46
"10",2227,2.15666,-0.309586,5.84575,3466.74
"11",2392,8.74812,2.60086,7.44372,3222.83
"12",2568,2.31068,1.4247,8.64292,3388.71
"13",2747,0.616939,3.1113,9.98811,3087.64
"14",2910,-12.3856,2.25624,8.3971,3400.12
"15",3083,-1.1235,2.0415,7.70337,3469.35
"16",3237,8.15251,4.513,9.37458,3203.26
"17",3360,9.59447,4.61765,9.48801,3284.55
"18",3478,7.30539,2.1506,7.90195,3339.24
"19",3598,3.06021,3.00419,9.47423,3464.59
"20",3716,44.6901,5.06654,12.6748,2427.06
"21",3835,14.8131,6.48915,10.5437,2655.97
"22",3950,25.6213,0.256319,7.89695,3239.56
"23",4071,36.9917,0.205915,7.08822,3606.9
"24",4183,16.211,-2.77201,5.32255,3105.99
"25",4302,12.9934,-1.93257,5.64395,3261.12
"26",4422,15.0305,-0.972193,5.93402,2884.49
"27",4537,11.5225,0.062676,6.81293,3610.7
"28",4645,-15.2254,-3.01138,6.27154,2849.03
"29",4786,2.38062,-2.76889,5.19899,3137.19
"30",4923,22.9097,0.0694113,6.28116,3563.83
"31",5057,14.3505,0.0979009,6.76318,3034.98
"32",5173,-2.31466,-1.42715,6.28251,3291.6
"33",5289,31.6534,-0.299822,7.75655,2768.93
"34",5403,10.3111,0.639792,6.99598,3537.38
"35",5517,7.73998,-3.14749,7.20074,3306.85
"36",5601,25.8154,1.36154,8.40191,3737.26
"37",5683,6.69329,-2.09526,7.21726,2795.68
"38",5766,1.34119,-1.12916,7.76042,3582.79
"39",5849,58.1124,-1.08051,7.93933,2920.79
"40",5932,52.6934,-2.37356,8.72183,2631.99
"41",6056,23.2549,-3.05177,7.27221,2400.33
"42",6182,27.8591,-3.85616,7.31276,2623.2
"43",6308,14.2113,-3.57549,6.62308,3063.11
"44",6435,4.78853,-5.15117,5.75493,3297.59
"45",6562,-13.5416,-3.39636,5.22877,2625.19
"46",6688,13.8538,-3.81974,6.18275,3076.68
"47",6815,-3.27073,-6.66942,4.32697,3032.91
"48",6943,6.96553,-4.3023,5.88348,2855.99
"49",7075,-8.0267,-5.00644,5.38429,2515.94
"50",7273,-5.69062,-3.35624,5.8999,2598.79

File: XRD_BRT_brACA_kwet.csv
"","Age","MPCOQ","MAAT","MAF","AI"
"1",56,18.985,1.20063,8.99032,2041.36
"2",141,18.2604,1.13016,9.04822,2021.32
"3",441,32.5204,1.27542,10.4791,2033.37
"4",672,16.3412,1.43592,9.09064,2474.89
"5",918,40.9646,1.89359,11.4127,1965.64
"6",1158,11.2698,2.19649,11.3346,1995.94
"7",1393,10.042,3.51859,9.61261,2142.75
"8",1640,6.16377,1.90378,8.1467,2195.06
"9",1883,9.5054,4.59357,10.6353,2244.09
"10",2227,0.910981,3.12374,9.44043,2459.53
"11",2392,10.6164,3.06624,10.3208,2545.46
"12",2568,9.53134,3.54095,10.8128,2393.33
"13",2747,12.6657,3.16652,10.996,2394.81
"14",2910,-0.69112,3.40329,10.0218,2319.66
"15",3083,-1.24808,3.16062,9.90751,2342.31
"16",3237,9.21275,3.19079,10.3693,2389.46
"17",3360,17.4647,2.73966,9.43507,2386.28
"18",3478,3.8038,1.50216,9.26473,2273.76
"19",3598,-4.19567,3.4714,10.2067,2248.72
"20",3716,18.8492,4.8267,11.069,1860.51
"21",3835,20.3817,2.48208,8.5752,1979.48
"22",3950,37.6161,3.11967,9.23318,1941.45
"23",4071,3.96619,3.53767,8.79492,1884.35
"24",4183,10.1942,2.13383,7.72533,1899.63
"25",4302,1.3431,2.94298,7.61101,2039.35
"26",4422,4.5468,2.20326,8.19044,1974.16
"27",4537,20.221,3.56547,9.81439,2249.06
"28",4645,49.2701,3.05285,7.54401,2387.29
"29",4786,7.13309,3.25432,7.48827,2121.92
"30",4923,17.9496,4.19978,9.30934,2357.47
"31",5057,28.4339,2.55813,8.20793,2356.01
"32",5173,37.5763,1.98902,7.58057,2546.77
"33",5289,20.6794,1.21838,7.98005,1942.94
"34",5403,26.1269,2.43301,8.62863,2550.27
"35",5517,11.1065,-0.29929,6.14523,2836.52
"36",5601,21.3223,0.514991,7.23091,2998.76
"37",5683,14.611,-0.515787,6.26833,2452.93
"38",5766,16.3803,2.46171,9.2096,2717.96
"39",5849,1.29148,-0.975971,6.20792,2785.15
"40",5932,12.7783,0.315715,6.91058,2633.41
"41",6056,12.7237,-0.932336,4.87198,1810.45
"42",6182,11.8568,-0.420682,6.66618,1929.84
"43",6308,10.661,-0.386786,6.85159,2453.37
"44",6435,26.2924,0.485819,6.24456,2496.93
"45",6562,16.1142,0.35184,7.58596,1962.81
"46",6688,29.6338,-1.31877,5.75427,2067.5
"47",6815,8.74232,0.477076,5.46727,1914.3
"48",6943,11.6979,0.225064,5.87776,2026.72
"49",7075,8.94255,0.803641,6.14144,1870.13
"50",7273,5.3069,0.871708,7.49843,2010.81